<Bundle xmlns="http://hl7.org/fhir">
  <id value="85640a46-f7c3-41c6-9098-df85292b2cae"></id>
  <meta>
    <profile value="https://fhir.gkvsv.de/StructureDefinition/GKVSV_PR_TA7_Sammelrechnung_Bundle|1.1.0"></profile>
  </meta>
  <identifier>
    <extension url="https://fhir.gkvsv.de/StructureDefinition/GKVSV_EX_ERP_TA7_Dateinummer">
      <valueString value="00007"></valueString>
    </extension>
    <system value="https://fhir.gkvsv.de/NamingSystem/GKVSV_NS_Dateiname"></system>
    <value value="APO45607"></value>
  </identifier>
  <type value="document"></type>
  <timestamp value="2021-11-19T09:51:14.409+01:00"></timestamp>
  <entry>
    <fullUrl value="61d18d37-d163-4ab0-a4fa-d2b9197be439"></fullUrl>
    <resource>
      <Composition xmlns="http://hl7.org/fhir">
        <id value="61d18d37-d163-4ab0-a4fa-d2b9197be439"></id>
        <meta>
          <profile value="https://fhir.gkvsv.de/StructureDefinition/GKVSV_PR_TA7_Sammelrechnung_Composition|1.1.0"></profile>
        </meta>
        <extension url="https://fhir.gkvsv.de/StructureDefinition/GKVSV_EX_TA7_IK_Empfaenger">
          <valueIdentifier>
            <system value="http://fhir.de/NamingSystem/arge-ik/iknr"></system>
            <value value="123456789"></value>
          </valueIdentifier>
        </extension>
        <extension url="https://fhir.gkvsv.de/StructureDefinition/GKVSV_EX_TA7_IK_Kostentraeger">
          <valueIdentifier>
            <system value="http://fhir.de/NamingSystem/arge-ik/iknr"></system>
            <value value="987654321"></value>
          </valueIdentifier>
        </extension>
        <status value="final"></status>
        <type>
          <coding>
            <system value="https://fhir.gkvsv.de/CodeSystem/GKVSV_CS_ERP_TA7"></system>
            <code value="SR"></code>
            <display value="Sammelrechnung"></display>
          </coding>
        </type>
        <date value="2021-11-19"></date>
        <author>
          <identifier>
            <system value="http://fhir.de/NamingSystem/arge-ik/iknr"></system>
            <value value="321456789"></value>
          </identifier>
        </author>
        <title value="elektronische Sammelrechnung"></title>
        <section>
          <code>
            <coding>
              <system value="https://fhir.gkvsv.de/CodeSystem/GKVSV_CS_ERP_TA7"></system>
              <code value="LSR"></code>
              <display value="Liste der Sammelrechnungen"></display>
            </coding>
          </code>
          <entry>
            <reference value="a372af1c-4fe4-496c-a1b3-c7b003eca767"></reference>
          </entry>
        </section>
        <section>
          <code>
            <coding>
              <system value="https://fhir.gkvsv.de/CodeSystem/GKVSV_CS_ERP_TA7"></system>
              <code value="R"></code>
              <display value="Rechnungen"></display>
            </coding>
          </code>
          <entry>
            <reference value="c5e0de89-a9fc-4ace-b7dd-977750b897d6"></reference>
          </entry>
        </section>
      </Composition>
    </resource>
  </entry>
  <entry>
    <fullUrl value="a372af1c-4fe4-496c-a1b3-c7b003eca767"></fullUrl>
    <resource>
      <List xmlns="http://hl7.org/fhir">
        <id value="a372af1c-4fe4-496c-a1b3-c7b003eca767"></id>
        <meta>
          <profile value="https://fhir.gkvsv.de/StructureDefinition/GKVSV_PR_TA7_Sammelrechnung_List|1.1.0"></profile>
        </meta>
        <status value="current"></status>
        <mode value="working"></mode>
        <entry>
          <item>
            <reference value="Bundle/85640a46-f7c3-41c6-9098-df85292b2cae"></reference>
          </item>
        </entry>
      </List>
    </resource>
  </entry>
  <entry>
    <fullUrl value="c5e0de89-a9fc-4ace-b7dd-977750b897d6"></fullUrl>
    <resource>
      <Invoice xmlns="http://hl7.org/fhir">
        <id value="c5e0de89-a9fc-4ace-b7dd-977750b897d6"></id>
        <meta>
          <profile value="https://fhir.gkvsv.de/StructureDefinition/GKVSV_PR_TA7_Rechnung|1.1.0"></profile>
        </meta>
        <extension url="https://fhir.gkvsv.de/StructureDefinition/GKVSV_EX_ERP_TA7_Abrechnungszeitraum">
          <valueDateTime value="2021-11-19"></valueDateTime>
        </extension>
        <extension url="https://fhir.gkvsv.de/StructureDefinition/GKVSV_EX_ERP_RezeptBundleReferenz">
          <extension url="lineItem">
            <valueReference>
              <reference value="3b13ee8d-6392-4836-a062-2247770fe78b"></reference>
            </valueReference>
          </extension>
        </extension>
        <identifier>
          <system value="https://fhir.gkvsv.de/NamingSystem/GKVSV_NS_Sammelrechnungsnummer"></system>
          <value value="1234567890000000"></value>
        </identifier>
        <status value="issued"></status>
        <type>
          <coding>
            <system value="https://fhir.gkvsv.de/CodeSystem/GKVSV_CS_ERP_Rechnungsart"></system>
            <code value="2"></code>
          </coding>
        </type>
        <recipient>
          <identifier>
            <system value="http://fhir.de/NamingSystem/arge-ik/iknr"></system>
            <value value="123456789"></value>
          </identifier>
        </recipient>
        <date value="2021-11-19"></date>
      </Invoice>
    </resource>
  </entry>
  <entry>
    <fullUrl value="3b13ee8d-6392-4836-a062-2247770fe78b"></fullUrl>
    <resource>
      <Bundle xmlns="http://hl7.org/fhir">
        <id value="3b13ee8d-6392-4836-a062-2247770fe78b"></id>
        <meta>
          <profile value="https://fhir.gkvsv.de/StructureDefinition/GKVSV_PR_TA7_RezeptBundle|1.1.0"></profile>
        </meta>
        <type value="collection"></type>
        <entry>
          <link>
            <relation value="item"></relation>
            <url value="https://fhir.kbv.de/StructureDefinition/KBV_PR_ERP_Bundle"></url>
          </link>
          <fullUrl value="53a78a66-80ec-4923-8884-8caa7ee65026"></fullUrl>
          <resource>
            <Binary xmlns="http://hl7.org/fhir">
              <id value="53a78a66-80ec-4923-8884-8caa7ee65026"></id>
              <meta>
                <profile value="https://gematik.de/fhir/StructureDefinition/ErxBinary"></profile>
              </meta>
              <contentType value="application/pkcs7-mime"></contentType>
              <data value="VmVyb3JkbnVuZ3NkYXRlbiBCZWlzcGllbCBFcnN0ZWxsdW5nIEJlaXNwaWVsIGVBYnJlY2hudW5nc2RhdGVu"></data>
            </Binary>
          </resource>
        </entry>
        <entry>
          <link>
            <relation value="item"></relation>
            <url value="https://gematik.de/fhir/StructureDefinition/ErxReceipt"></url>
          </link>
          <fullUrl value="ef99f877-9751-4385-a7cb-f8c4878965ad"></fullUrl>
          <resource>
            <Binary xmlns="http://hl7.org/fhir">
              <id value="ef99f877-9751-4385-a7cb-f8c4878965ad"></id>
              <meta>
                <profile value="https://gematik.de/fhir/StructureDefinition/ErxBinary"></profile>
              </meta>
              <contentType value="application/pkcs7-mime"></contentType>
              <data value="VmVyb3JkbnVuZ3NkYXRlbiBCZWlzcGllbCBFcnN0ZWxsdW5nIEJlaXNwaWVsIGVBYnJlY2hudW5nc2RhdGVu"></data>
            </Binary>
          </resource>
        </entry>
        <entry>
          <link>
            <relation value="item"></relation>
            <url value="http://fhir.abda.de/eRezeptAbgabedaten/StructureDefinition/DAV-PR-ERP-AbgabedatenBundle"></url>
          </link>
          <fullUrl value="32ba1d5d-0e19-4cdc-93ff-03ce1a7302dc"></fullUrl>
          <resource>
            <Binary xmlns="http://hl7.org/fhir">
              <id value="32ba1d5d-0e19-4cdc-93ff-03ce1a7302dc"></id>
              <meta>
                <profile value="https://gematik.de/fhir/StructureDefinition/ErxBinary"></profile>
              </meta>
              <contentType value="application/pkcs7-mime"></contentType>
              <data value="ZUFiZ2FiZWRhdGVuIEJlaXNwaWVsIEVyc3RlbGx1bmcgQmVpc3BpZWwgZUFicmVjaG51bmdzZGF0ZW4="></data>
            </Binary>
          </resource>
        </entry>
        <entry>
          <link>
            <relation value="item"></relation>
            <url value="https://fhir.gkvsv.de/StructureDefinition/GKVSV_PR_ERP_eAbrechnungsdaten"></url>
          </link>
          <fullUrl value="6c5d67f6-b188-42e9-b6ac-b16ad376341d"></fullUrl>
          <resource>
            <Invoice xmlns="http://hl7.org/fhir">
              <id value="6c5d67f6-b188-42e9-b6ac-b16ad376341d"></id>
              <meta>
                <profile value="https://fhir.gkvsv.de/StructureDefinition/GKVSV_PR_ERP_eAbrechnungsdaten|1.1.0"></profile>
              </meta>
              <extension url="https://fhir.gkvsv.de/StructureDefinition/GKVSV_EX_ERP_Irrlaeufer">
                <valueBoolean value="true"></valueBoolean>
              </extension>
              <extension url="http://fhir.gkvsv.de/StructureDefinition/GKVSV_EX_ERP_ZusatzdatenHerstellung">
                <extension url="zaehlerHerstellung">
                  <valuePositiveInt value="1"></valuePositiveInt>
                </extension>
                <extension url="einheit">
                  <extension url="zaehlerEinheit">
                    <valueInteger value="1"></valueInteger>
                  </extension>
                  <extension url="abrechnungspositionen">
                    <extension url="zaehlerAbrechnungsposition">
                      <valuePositiveInt value="1"></valuePositiveInt>
                    </extension>
                    <extension url="zuAbschlaegeZusatzdaten">
                      <extension url="zuAbschlagCode">
                        <valueCodeableConcept>
                          <coding>
                            <system value="https://fhir.gkvsv.de/CodeSystem/GKVSV_CS_ERP_Verwurf"></system>
                            <code value="R001"></code>
                          </coding>
                        </valueCodeableConcept>
                      </extension>
                      <extension url="zuAbschlagKennzeichen">
                        <valueCode value="deduction"></valueCode>
                      </extension>
                      <extension url="zuAbschlagBetrag">
                        <valueMoney>
                          <value value="100.59"></value>
                          <currency value="EUR"></currency>
                        </valueMoney>
                      </extension>
                    </extension>
                  </extension>
                  <extension url="abrechnungspositionen">
                    <extension url="zaehlerAbrechnungsposition">
                      <valuePositiveInt value="2"></valuePositiveInt>
                    </extension>
                    <extension url="zuAbschlaegeZusatzdaten">
                      <extension url="zuAbschlagCode">
                        <valueCodeableConcept>
                          <coding>
                            <system value="https://fhir.gkvsv.de/CodeSystem/GKVSV_CS_ERP_Verwurf"></system>
                            <code value="R004"></code>
                          </coding>
                        </valueCodeableConcept>
                      </extension>
                      <extension url="zuAbschlagKennzeichen">
                        <valueCode value="surcharge"></valueCode>
                      </extension>
                      <extension url="zuAbschlagBetrag">
                        <valueMoney>
                          <value value="-3102.57"></value>
                          <currency value="EUR"></currency>
                        </valueMoney>
                      </extension>
                    </extension>
                  </extension>
                </extension>
              </extension>
              <identifier>
                <system value="https://gematik.de/fhir/NamingSystem/PrescriptionID"></system>
                <value value="160.100.000.000.021.76"></value>
              </identifier>
              <identifier>
                <system value="https://fhir.gkvsv.de/NamingSystem/GKVSV_NS_Belegnummer"></system>
                <value value="2105000000713456789"></value>
              </identifier>
              <status value="issued"></status>
              <issuer>
                <extension url="https://fhir.gkvsv.de/StructureDefinition/GKVSV_EX_ERP_LE_Sitz">
                  <valueCoding>
                    <system value="https://fhir.gkvsv.de/CodeSystem/GKVSV_CS_ERP_Leistungserbringer_Sitz"></system>
                    <code value="2"></code>
                  </valueCoding>
                </extension>
                <identifier>
                  <type>
                    <coding>
                      <system value="https://fhir.gkvsv.de/CodeSystem/GKVSV_CS_ERP_Leistungserbringertyp"></system>
                      <code value="K"></code>
                    </coding>
                  </type>
                  <system value="http://fhir.de/NamingSystem/arge-ik/iknr"></system>
                  <value value="90456789"></value>
                </identifier>
              </issuer>
              <lineItem>
                <extension url="https://fhir.gkvsv.de/StructureDefinition/GKVSV_EX_ERP_Positionstyp">
                  <valueCodeableConcept>
                    <coding>
                      <system value="https://fhir.gkvsv.de/CodeSystem/GKVSV_CS_ERP_Positionstyp"></system>
                      <code value="1"></code>
                      <display value="übrige Position"></display>
                    </coding>
                  </valueCodeableConcept>
                </extension>
                <extension url="https://fhir.gkvsv.de/StructureDefinition/GKVSV_EX_ERP_Import">
                  <valueCodeableConcept>
                    <coding>
                      <system value="https://fhir.gkvsv.de/CodeSystem/GKVSV_CS_ERP_Import"></system>
                      <code value="3"></code>
                    </coding>
                  </valueCodeableConcept>
                </extension>
                <extension url="https://fhir.gkvsv.de/StructureDefinition/GKVSV_EX_ERP_VAT_VALUE">
                  <valueMoney>
                    <value value="56.89"></value>
                    <currency value="EUR"></currency>
                  </valueMoney>
                </extension>
                <sequence value="1"></sequence>
                <chargeItemCodeableConcept>
                  <coding>
                    <system value="http://terminology.hl7.org/CodeSystem/v3-NullFlavor"></system>
                    <code value="UNC"></code>
                  </coding>
                </chargeItemCodeableConcept>
                <priceComponent>
                  <type value="surcharge"></type>
                  <code>
                    <coding>
                      <system value="https://fhir.gkvsv.de/CodeSystem/GKVSV_CS_ERP_ZuAbschlagKey"></system>
                      <code value="R004"></code>
                    </coding>
                  </code>
                  <amount>
                    <value value="-1.77"></value>
                    <currency value="EUR"></currency>
                  </amount>
                </priceComponent>
              </lineItem>
            </Invoice>
          </resource>
        </entry>
      </Bundle>
    </resource>
  </entry>
</Bundle>
